{
    "parameter": [
        {
            "name": "genotype",
            "resource": {
                "category": [
                    {
                        "coding": [
                            {
                                "code": "laboratory",
                                "system": "http://terminology.hl7.org/CodeSystem/observation-category"
                            }
                        ]
                    }
                ],
                "code": {
                    "coding": [
                        {
                            "code": "84413-4",
                            "display": "Genotype display name",
                            "system": "http://loinc.org"
                        }
                    ]
                },
                "component": [
                    {
                        "code": {
                            "coding": [
                                {
                                    "code": "48018-6",
                                    "display": "Gene studied",
                                    "system": "http://loinc.org"
                                }
                            ]
                        },
                        "valueCodeableConcept": {
                            "coding": [
                                {
                                    "code": "HGNC:2621",
                                    "display": "CYP2C19",
                                    "system": "http://www.genenames.org/geneId"
                                }
                            ]
                        }
                    }
                ],
                "id": "dv-61ccfd4a072302a0eb2115c3",
                "meta": {
                    "profile": [
                        "http://hl7.org/fhir/uv/genomics-reporting/StructureDefinition/genotype"
                    ]
                },
                "resourceType": "Observation",
                "status": "final",
                "subject": {
                    "reference": "Patient/NB6TK328"
                },
                "valueCodeableConcept": {
                    "coding": [
                        {
                            "code": "CYP2C19 *1/*17",
                            "display": "CYP2C19 *1/*17",
                            "system": "https://www.pharmvar.org"
                        }
                    ]
                }
            }
        },
        {
            "name": "genotype",
            "resource": {
                "category": [
                    {
                        "coding": [
                            {
                                "code": "laboratory",
                                "system": "http://terminology.hl7.org/CodeSystem/observation-category"
                            }
                        ]
                    }
                ],
                "code": {
                    "coding": [
                        {
                            "code": "84413-4",
                            "display": "Genotype display name",
                            "system": "http://loinc.org"
                        }
                    ]
                },
                "component": [
                    {
                        "code": {
                            "coding": [
                                {
                                    "code": "48018-6",
                                    "display": "Gene studied",
                                    "system": "http://loinc.org"
                                }
                            ]
                        },
                        "valueCodeableConcept": {
                            "coding": [
                                {
                                    "code": "HGNC:2621",
                                    "display": "CYP2C19",
                                    "system": "http://www.genenames.org/geneId"
                                }
                            ]
                        }
                    }
                ],
                "id": "dv-61ccfd4a072302a0eb2115c3",
                "meta": {
                    "profile": [
                        "http://hl7.org/fhir/uv/genomics-reporting/StructureDefinition/genotype"
                    ]
                },
                "resourceType": "Observation",
                "status": "final",
                "subject": {
                    "reference": "Patient/NB6TK328"
                },
                "valueCodeableConcept": {
                    "coding": [
                        {
                            "code": "CYP2C19 *1/*17",
                            "display": "CYP2C19 *1/*17",
                            "system": "https://www.pharmvar.org"
                        }
                    ]
                }
            }
        },
        {
            "name": "genotype",
            "resource": {
                "category": [
                    {
                        "coding": [
                            {
                                "code": "laboratory",
                                "system": "http://terminology.hl7.org/CodeSystem/observation-category"
                            }
                        ]
                    }
                ],
                "code": {
                    "coding": [
                        {
                            "code": "84413-4",
                            "display": "Genotype display name",
                            "system": "http://loinc.org"
                        }
                    ]
                },
                "component": [
                    {
                        "code": {
                            "coding": [
                                {
                                    "code": "48018-6",
                                    "display": "Gene studied",
                                    "system": "http://loinc.org"
                                }
                            ]
                        },
                        "valueCodeableConcept": {
                            "coding": [
                                {
                                    "code": "HGNC:2621",
                                    "display": "CYP2C19",
                                    "system": "http://www.genenames.org/geneId"
                                }
                            ]
                        }
                    }
                ],
                "id": "dv-61ccfd4a072302a0eb2115c3",
                "meta": {
                    "profile": [
                        "http://hl7.org/fhir/uv/genomics-reporting/StructureDefinition/genotype"
                    ]
                },
                "resourceType": "Observation",
                "status": "final",
                "subject": {
                    "reference": "Patient/NB6TK328"
                },
                "valueCodeableConcept": {
                    "coding": [
                        {
                            "code": "CYP2C19 *1/*17",
                            "display": "CYP2C19 *1/*17",
                            "system": "https://www.pharmvar.org"
                        }
                    ]
                }
            }
        },
        {
            "name": "genotype",
            "resource": {
                "category": [
                    {
                        "coding": [
                            {
                                "code": "laboratory",
                                "system": "http://terminology.hl7.org/CodeSystem/observation-category"
                            }
                        ]
                    }
                ],
                "code": {
                    "coding": [
                        {
                            "code": "84413-4",
                            "display": "Genotype display name",
                            "system": "http://loinc.org"
                        }
                    ]
                },
                "component": [
                    {
                        "code": {
                            "coding": [
                                {
                                    "code": "48018-6",
                                    "display": "Gene studied",
                                    "system": "http://loinc.org"
                                }
                            ]
                        },
                        "valueCodeableConcept": {
                            "coding": [
                                {
                                    "code": "HGNC:2621",
                                    "display": "CYP2C19",
                                    "system": "http://www.genenames.org/geneId"
                                }
                            ]
                        }
                    }
                ],
                "id": "dv-61ccfd4a072302a0eb2115c3",
                "meta": {
                    "profile": [
                        "http://hl7.org/fhir/uv/genomics-reporting/StructureDefinition/genotype"
                    ]
                },
                "resourceType": "Observation",
                "status": "final",
                "subject": {
                    "reference": "Patient/NB6TK328"
                },
                "valueCodeableConcept": {
                    "coding": [
                        {
                            "code": "CYP2C19 *1/*17",
                            "display": "CYP2C19 *1/*17",
                            "system": "https://www.pharmvar.org"
                        }
                    ]
                }
            }
        },
        {
            "name": "genotype",
            "resource": {
                "category": [
                    {
                        "coding": [
                            {
                                "code": "laboratory",
                                "system": "http://terminology.hl7.org/CodeSystem/observation-category"
                            }
                        ]
                    }
                ],
                "code": {
                    "coding": [
                        {
                            "code": "84413-4",
                            "display": "Genotype display name",
                            "system": "http://loinc.org"
                        }
                    ]
                },
                "component": [
                    {
                        "code": {
                            "coding": [
                                {
                                    "code": "48018-6",
                                    "display": "Gene studied",
                                    "system": "http://loinc.org"
                                }
                            ]
                        },
                        "valueCodeableConcept": {
                            "coding": [
                                {
                                    "code": "HGNC:2621",
                                    "display": "CYP2C19",
                                    "system": "http://www.genenames.org/geneId"
                                }
                            ]
                        }
                    }
                ],
                "id": "dv-61ccfd4a072302a0eb2115c3",
                "meta": {
                    "profile": [
                        "http://hl7.org/fhir/uv/genomics-reporting/StructureDefinition/genotype"
                    ]
                },
                "resourceType": "Observation",
                "status": "final",
                "subject": {
                    "reference": "Patient/NB6TK328"
                },
                "valueCodeableConcept": {
                    "coding": [
                        {
                            "code": "CYP2C19 *1/*17",
                            "display": "CYP2C19 *1/*17",
                            "system": "https://www.pharmvar.org"
                        }
                    ]
                }
            }
        },
        {
            "name": "genotype",
            "resource": {
                "category": [
                    {
                        "coding": [
                            {
                                "code": "laboratory",
                                "system": "http://terminology.hl7.org/CodeSystem/observation-category"
                            }
                        ]
                    }
                ],
                "code": {
                    "coding": [
                        {
                            "code": "84413-4",
                            "display": "Genotype display name",
                            "system": "http://loinc.org"
                        }
                    ]
                },
                "component": [
                    {
                        "code": {
                            "coding": [
                                {
                                    "code": "48018-6",
                                    "display": "Gene studied",
                                    "system": "http://loinc.org"
                                }
                            ]
                        },
                        "valueCodeableConcept": {
                            "coding": [
                                {
                                    "code": "HGNC:2625",
                                    "display": "CYP2D6",
                                    "system": "http://www.genenames.org/geneId"
                                }
                            ]
                        }
                    }
                ],
                "id": "dv-61ccfd4a072302a0eb2115c6",
                "meta": {
                    "profile": [
                        "http://hl7.org/fhir/uv/genomics-reporting/StructureDefinition/genotype"
                    ]
                },
                "resourceType": "Observation",
                "status": "final",
                "subject": {
                    "reference": "Patient/NB6TK328"
                },
                "valueCodeableConcept": {
                    "coding": [
                        {
                            "code": "CYP2D6 *1/*41",
                            "display": "CYP2D6 *1/*41",
                            "system": "https://www.pharmvar.org"
                        }
                    ]
                }
            }
        },
        {
            "name": "genotype",
            "resource": {
                "category": [
                    {
                        "coding": [
                            {
                                "code": "laboratory",
                                "system": "http://terminology.hl7.org/CodeSystem/observation-category"
                            }
                        ]
                    }
                ],
                "code": {
                    "coding": [
                        {
                            "code": "84413-4",
                            "display": "Genotype display name",
                            "system": "http://loinc.org"
                        }
                    ]
                },
                "component": [
                    {
                        "code": {
                            "coding": [
                                {
                                    "code": "48018-6",
                                    "display": "Gene studied",
                                    "system": "http://loinc.org"
                                }
                            ]
                        },
                        "valueCodeableConcept": {
                            "coding": [
                                {
                                    "code": "HGNC:2625",
                                    "display": "CYP2D6",
                                    "system": "http://www.genenames.org/geneId"
                                }
                            ]
                        }
                    }
                ],
                "id": "dv-61ccfd4a072302a0eb2115c6",
                "meta": {
                    "profile": [
                        "http://hl7.org/fhir/uv/genomics-reporting/StructureDefinition/genotype"
                    ]
                },
                "resourceType": "Observation",
                "status": "final",
                "subject": {
                    "reference": "Patient/NB6TK328"
                },
                "valueCodeableConcept": {
                    "coding": [
                        {
                            "code": "CYP2D6 *1/*41",
                            "display": "CYP2D6 *1/*41",
                            "system": "https://www.pharmvar.org"
                        }
                    ]
                }
            }
        },
        {
            "name": "genotype",
            "resource": {
                "category": [
                    {
                        "coding": [
                            {
                                "code": "laboratory",
                                "system": "http://terminology.hl7.org/CodeSystem/observation-category"
                            }
                        ]
                    }
                ],
                "code": {
                    "coding": [
                        {
                            "code": "84413-4",
                            "display": "Genotype display name",
                            "system": "http://loinc.org"
                        }
                    ]
                },
                "component": [
                    {
                        "code": {
                            "coding": [
                                {
                                    "code": "48018-6",
                                    "display": "Gene studied",
                                    "system": "http://loinc.org"
                                }
                            ]
                        },
                        "valueCodeableConcept": {
                            "coding": [
                                {
                                    "code": "HGNC:2625",
                                    "display": "CYP2D6",
                                    "system": "http://www.genenames.org/geneId"
                                }
                            ]
                        }
                    }
                ],
                "id": "dv-61ccfd4a072302a0eb2115c6",
                "meta": {
                    "profile": [
                        "http://hl7.org/fhir/uv/genomics-reporting/StructureDefinition/genotype"
                    ]
                },
                "resourceType": "Observation",
                "status": "final",
                "subject": {
                    "reference": "Patient/NB6TK328"
                },
                "valueCodeableConcept": {
                    "coding": [
                        {
                            "code": "CYP2D6 *1/*41",
                            "display": "CYP2D6 *1/*41",
                            "system": "https://www.pharmvar.org"
                        }
                    ]
                }
            }
        },
        {
            "name": "genotype",
            "resource": {
                "category": [
                    {
                        "coding": [
                            {
                                "code": "laboratory",
                                "system": "http://terminology.hl7.org/CodeSystem/observation-category"
                            }
                        ]
                    }
                ],
                "code": {
                    "coding": [
                        {
                            "code": "84413-4",
                            "display": "Genotype display name",
                            "system": "http://loinc.org"
                        }
                    ]
                },
                "component": [
                    {
                        "code": {
                            "coding": [
                                {
                                    "code": "48018-6",
                                    "display": "Gene studied",
                                    "system": "http://loinc.org"
                                }
                            ]
                        },
                        "valueCodeableConcept": {
                            "coding": [
                                {
                                    "code": "HGNC:2625",
                                    "display": "CYP2D6",
                                    "system": "http://www.genenames.org/geneId"
                                }
                            ]
                        }
                    }
                ],
                "id": "dv-61ccfd4a072302a0eb2115c6",
                "meta": {
                    "profile": [
                        "http://hl7.org/fhir/uv/genomics-reporting/StructureDefinition/genotype"
                    ]
                },
                "resourceType": "Observation",
                "status": "final",
                "subject": {
                    "reference": "Patient/NB6TK328"
                },
                "valueCodeableConcept": {
                    "coding": [
                        {
                            "code": "CYP2D6 *1/*41",
                            "display": "CYP2D6 *1/*41",
                            "system": "https://www.pharmvar.org"
                        }
                    ]
                }
            }
        },
        {
            "name": "genotype",
            "resource": {
                "category": [
                    {
                        "coding": [
                            {
                                "code": "laboratory",
                                "system": "http://terminology.hl7.org/CodeSystem/observation-category"
                            }
                        ]
                    }
                ],
                "code": {
                    "coding": [
                        {
                            "code": "84413-4",
                            "display": "Genotype display name",
                            "system": "http://loinc.org"
                        }
                    ]
                },
                "component": [
                    {
                        "code": {
                            "coding": [
                                {
                                    "code": "48018-6",
                                    "display": "Gene studied",
                                    "system": "http://loinc.org"
                                }
                            ]
                        },
                        "valueCodeableConcept": {
                            "coding": [
                                {
                                    "code": "HGNC:2625",
                                    "display": "CYP2D6",
                                    "system": "http://www.genenames.org/geneId"
                                }
                            ]
                        }
                    }
                ],
                "id": "dv-61ccfd4a072302a0eb2115c6",
                "meta": {
                    "profile": [
                        "http://hl7.org/fhir/uv/genomics-reporting/StructureDefinition/genotype"
                    ]
                },
                "resourceType": "Observation",
                "status": "final",
                "subject": {
                    "reference": "Patient/NB6TK328"
                },
                "valueCodeableConcept": {
                    "coding": [
                        {
                            "code": "CYP2D6 *1/*41",
                            "display": "CYP2D6 *1/*41",
                            "system": "https://www.pharmvar.org"
                        }
                    ]
                }
            }
        },
        {
            "name": "genotype",
            "resource": {
                "category": [
                    {
                        "coding": [
                            {
                                "code": "laboratory",
                                "system": "http://terminology.hl7.org/CodeSystem/observation-category"
                            }
                        ]
                    }
                ],
                "code": {
                    "coding": [
                        {
                            "code": "84413-4",
                            "display": "Genotype display name",
                            "system": "http://loinc.org"
                        }
                    ]
                },
                "component": [
                    {
                        "code": {
                            "coding": [
                                {
                                    "code": "48018-6",
                                    "display": "Gene studied",
                                    "system": "http://loinc.org"
                                }
                            ]
                        },
                        "valueCodeableConcept": {
                            "coding": [
                                {
                                    "code": "HGNC:2625",
                                    "display": "CYP2D6",
                                    "system": "http://www.genenames.org/geneId"
                                }
                            ]
                        }
                    }
                ],
                "id": "dv-61ccfd4a072302a0eb2115c6",
                "meta": {
                    "profile": [
                        "http://hl7.org/fhir/uv/genomics-reporting/StructureDefinition/genotype"
                    ]
                },
                "resourceType": "Observation",
                "status": "final",
                "subject": {
                    "reference": "Patient/NB6TK328"
                },
                "valueCodeableConcept": {
                    "coding": [
                        {
                            "code": "CYP2D6 *1/*41",
                            "display": "CYP2D6 *1/*41",
                            "system": "https://www.pharmvar.org"
                        }
                    ]
                }
            }
        },
        {
            "name": "genotype",
            "resource": {
                "category": [
                    {
                        "coding": [
                            {
                                "code": "laboratory",
                                "system": "http://terminology.hl7.org/CodeSystem/observation-category"
                            }
                        ]
                    }
                ],
                "code": {
                    "coding": [
                        {
                            "code": "84413-4",
                            "display": "Genotype display name",
                            "system": "http://loinc.org"
                        }
                    ]
                },
                "component": [
                    {
                        "code": {
                            "coding": [
                                {
                                    "code": "48018-6",
                                    "display": "Gene studied",
                                    "system": "http://loinc.org"
                                }
                            ]
                        },
                        "valueCodeableConcept": {
                            "coding": [
                                {
                                    "code": "HGNC:2625",
                                    "display": "CYP2D6",
                                    "system": "http://www.genenames.org/geneId"
                                }
                            ]
                        }
                    }
                ],
                "id": "dv-61ccfd4a072302a0eb2115c6",
                "meta": {
                    "profile": [
                        "http://hl7.org/fhir/uv/genomics-reporting/StructureDefinition/genotype"
                    ]
                },
                "resourceType": "Observation",
                "status": "final",
                "subject": {
                    "reference": "Patient/NB6TK328"
                },
                "valueCodeableConcept": {
                    "coding": [
                        {
                            "code": "CYP2D6 *1/*41",
                            "display": "CYP2D6 *1/*41",
                            "system": "https://www.pharmvar.org"
                        }
                    ]
                }
            }
        },
        {
            "name": "genotype",
            "resource": {
                "category": [
                    {
                        "coding": [
                            {
                                "code": "laboratory",
                                "system": "http://terminology.hl7.org/CodeSystem/observation-category"
                            }
                        ]
                    }
                ],
                "code": {
                    "coding": [
                        {
                            "code": "84413-4",
                            "display": "Genotype display name",
                            "system": "http://loinc.org"
                        }
                    ]
                },
                "component": [
                    {
                        "code": {
                            "coding": [
                                {
                                    "code": "48018-6",
                                    "display": "Gene studied",
                                    "system": "http://loinc.org"
                                }
                            ]
                        },
                        "valueCodeableConcept": {
                            "coding": [
                                {
                                    "code": "HGNC:2625",
                                    "display": "CYP2D6",
                                    "system": "http://www.genenames.org/geneId"
                                }
                            ]
                        }
                    }
                ],
                "id": "dv-61ccfd4a072302a0eb2115c6",
                "meta": {
                    "profile": [
                        "http://hl7.org/fhir/uv/genomics-reporting/StructureDefinition/genotype"
                    ]
                },
                "resourceType": "Observation",
                "status": "final",
                "subject": {
                    "reference": "Patient/NB6TK328"
                },
                "valueCodeableConcept": {
                    "coding": [
                        {
                            "code": "CYP2D6 *1/*41",
                            "display": "CYP2D6 *1/*41",
                            "system": "https://www.pharmvar.org"
                        }
                    ]
                }
            }
        },
        {
            "name": "genotype",
            "resource": {
                "category": [
                    {
                        "coding": [
                            {
                                "code": "laboratory",
                                "system": "http://terminology.hl7.org/CodeSystem/observation-category"
                            }
                        ]
                    }
                ],
                "code": {
                    "coding": [
                        {
                            "code": "84413-4",
                            "display": "Genotype display name",
                            "system": "http://loinc.org"
                        }
                    ]
                },
                "component": [
                    {
                        "code": {
                            "coding": [
                                {
                                    "code": "48018-6",
                                    "display": "Gene studied",
                                    "system": "http://loinc.org"
                                }
                            ]
                        },
                        "valueCodeableConcept": {
                            "coding": [
                                {
                                    "code": "HGNC:2625",
                                    "display": "CYP2D6",
                                    "system": "http://www.genenames.org/geneId"
                                }
                            ]
                        }
                    }
                ],
                "id": "dv-61ccfd4a072302a0eb2115c6",
                "meta": {
                    "profile": [
                        "http://hl7.org/fhir/uv/genomics-reporting/StructureDefinition/genotype"
                    ]
                },
                "resourceType": "Observation",
                "status": "final",
                "subject": {
                    "reference": "Patient/NB6TK328"
                },
                "valueCodeableConcept": {
                    "coding": [
                        {
                            "code": "CYP2D6 *1/*41",
                            "display": "CYP2D6 *1/*41",
                            "system": "https://www.pharmvar.org"
                        }
                    ]
                }
            }
        },
        {
            "name": "genotype",
            "resource": {
                "category": [
                    {
                        "coding": [
                            {
                                "code": "laboratory",
                                "system": "http://terminology.hl7.org/CodeSystem/observation-category"
                            }
                        ]
                    }
                ],
                "code": {
                    "coding": [
                        {
                            "code": "84413-4",
                            "display": "Genotype display name",
                            "system": "http://loinc.org"
                        }
                    ]
                },
                "component": [
                    {
                        "code": {
                            "coding": [
                                {
                                    "code": "48018-6",
                                    "display": "Gene studied",
                                    "system": "http://loinc.org"
                                }
                            ]
                        },
                        "valueCodeableConcept": {
                            "coding": [
                                {
                                    "code": "HGNC:2625",
                                    "display": "CYP2D6",
                                    "system": "http://www.genenames.org/geneId"
                                }
                            ]
                        }
                    }
                ],
                "id": "dv-61ccfd4a072302a0eb2115c6",
                "meta": {
                    "profile": [
                        "http://hl7.org/fhir/uv/genomics-reporting/StructureDefinition/genotype"
                    ]
                },
                "resourceType": "Observation",
                "status": "final",
                "subject": {
                    "reference": "Patient/NB6TK328"
                },
                "valueCodeableConcept": {
                    "coding": [
                        {
                            "code": "CYP2D6 *1/*41",
                            "display": "CYP2D6 *1/*41",
                            "system": "https://www.pharmvar.org"
                        }
                    ]
                }
            }
        },
        {
            "name": "genotype",
            "resource": {
                "category": [
                    {
                        "coding": [
                            {
                                "code": "laboratory",
                                "system": "http://terminology.hl7.org/CodeSystem/observation-category"
                            }
                        ]
                    }
                ],
                "code": {
                    "coding": [
                        {
                            "code": "84413-4",
                            "display": "Genotype display name",
                            "system": "http://loinc.org"
                        }
                    ]
                },
                "component": [
                    {
                        "code": {
                            "coding": [
                                {
                                    "code": "48018-6",
                                    "display": "Gene studied",
                                    "system": "http://loinc.org"
                                }
                            ]
                        },
                        "valueCodeableConcept": {
                            "coding": [
                                {
                                    "code": "HGNC:2625",
                                    "display": "CYP2D6",
                                    "system": "http://www.genenames.org/geneId"
                                }
                            ]
                        }
                    }
                ],
                "id": "dv-61ccfd4a072302a0eb2115c6",
                "meta": {
                    "profile": [
                        "http://hl7.org/fhir/uv/genomics-reporting/StructureDefinition/genotype"
                    ]
                },
                "resourceType": "Observation",
                "status": "final",
                "subject": {
                    "reference": "Patient/NB6TK328"
                },
                "valueCodeableConcept": {
                    "coding": [
                        {
                            "code": "CYP2D6 *1/*41",
                            "display": "CYP2D6 *1/*41",
                            "system": "https://www.pharmvar.org"
                        }
                    ]
                }
            }
        },
        {
            "name": "implication",
            "resource": {
                "category": [
                    {
                        "coding": [
                            {
                                "code": "laboratory",
                                "system": "http://terminology.hl7.org/CodeSystem/observation-category"
                            }
                        ]
                    }
                ],
                "code": {
                    "coding": [
                        {
                            "code": "therapeutic-implication",
                            "system": "http://hl7.org/fhir/uv/genomics-reporting/CodeSystem/tbd-codes-cs"
                        }
                    ]
                },
                "component": [
                    {
                        "code": {
                            "coding": [
                                {
                                    "code": "51963-7",
                                    "display": "medication-assessed",
                                    "system": "http://loinc.org"
                                }
                            ]
                        },
                        "valueCodeableConcept": {
                            "coding": [
                                {
                                    "code": "10324",
                                    "display": "Tamoxifen",
                                    "system": "http://www.nlm.nih.gov/research/umls/rxnorm"
                                }
                            ]
                        }
                    },
                    {
                        "code": {
                            "coding": [
                                {
                                    "code": "93044-6",
                                    "display": "Level of evidence",
                                    "system": "http://loinc.org"
                                }
                            ]
                        },
                        "valueCodeableConcept": {
                            "text": "CPIC Level A"
                        }
                    },
                    {
                        "code": {
                            "coding": [
                                {
                                    "code": "predicted-therapeutic-implication",
                                    "display": "predicted-therapeutic-implication",
                                    "system": "http://hl7.org/fhir/uv/genomics-reporting/CodeSystem/tbd-codes-cs"
                                }
                            ]
                        },
                        "valueCodeableConcept": {
                            "text": "Normal Metabolizer"
                        }
                    }
                ],
                "derivedFrom": [
                    {
                        "reference": "Observation/dv-61ccfd4a072302a0eb2115c6"
                    }
                ],
                "id": "dv-631a4ae712d58a72041f91a9",
                "identifier": [
                    {
                        "system": "https://www.pharmgkb.org",
                        "value": "PA128"
                    }
                ],
                "meta": {
                    "profile": [
                        "http://hl7.org/fhir/uv/genomics-reporting/StructureDefinition/therapeutic-implication"
                    ]
                },
                "resourceType": "Observation",
                "status": "final",
                "subject": {
                    "reference": "Patient/NB6TK328"
                }
            }
        },
        {
            "name": "implication",
            "resource": {
                "category": [
                    {
                        "coding": [
                            {
                                "code": "laboratory",
                                "system": "http://terminology.hl7.org/CodeSystem/observation-category"
                            }
                        ]
                    }
                ],
                "code": {
                    "coding": [
                        {
                            "code": "therapeutic-implication",
                            "system": "http://hl7.org/fhir/uv/genomics-reporting/CodeSystem/tbd-codes-cs"
                        }
                    ]
                },
                "component": [
                    {
                        "code": {
                            "coding": [
                                {
                                    "code": "51963-7",
                                    "display": "medication-assessed",
                                    "system": "http://loinc.org"
                                }
                            ]
                        },
                        "valueCodeableConcept": {
                            "coding": [
                                {
                                    "code": "10689",
                                    "display": "Tramadol",
                                    "system": "http://www.nlm.nih.gov/research/umls/rxnorm"
                                }
                            ]
                        }
                    },
                    {
                        "code": {
                            "coding": [
                                {
                                    "code": "93044-6",
                                    "display": "Level of evidence",
                                    "system": "http://loinc.org"
                                }
                            ]
                        },
                        "valueCodeableConcept": {
                            "text": "CPIC Level A"
                        }
                    },
                    {
                        "code": {
                            "coding": [
                                {
                                    "code": "predicted-therapeutic-implication",
                                    "display": "predicted-therapeutic-implication",
                                    "system": "http://hl7.org/fhir/uv/genomics-reporting/CodeSystem/tbd-codes-cs"
                                }
                            ]
                        },
                        "valueCodeableConcept": {
                            "text": "Normal Metabolizer"
                        }
                    }
                ],
                "derivedFrom": [
                    {
                        "reference": "Observation/dv-61ccfd4a072302a0eb2115c6"
                    }
                ],
                "id": "dv-631a4ae712d58a72041f91ab",
                "identifier": [
                    {
                        "system": "https://www.pharmgkb.org",
                        "value": "PA128"
                    }
                ],
                "meta": {
                    "profile": [
                        "http://hl7.org/fhir/uv/genomics-reporting/StructureDefinition/therapeutic-implication"
                    ]
                },
                "resourceType": "Observation",
                "status": "final",
                "subject": {
                    "reference": "Patient/NB6TK328"
                }
            }
        },
        {
            "name": "implication",
            "resource": {
                "category": [
                    {
                        "coding": [
                            {
                                "code": "laboratory",
                                "system": "http://terminology.hl7.org/CodeSystem/observation-category"
                            }
                        ]
                    }
                ],
                "code": {
                    "coding": [
                        {
                            "code": "therapeutic-implication",
                            "system": "http://hl7.org/fhir/uv/genomics-reporting/CodeSystem/tbd-codes-cs"
                        }
                    ]
                },
                "component": [
                    {
                        "code": {
                            "coding": [
                                {
                                    "code": "51963-7",
                                    "display": "medication-assessed",
                                    "system": "http://loinc.org"
                                }
                            ]
                        },
                        "valueCodeableConcept": {
                            "coding": [
                                {
                                    "code": "121243",
                                    "display": "voriconazole",
                                    "system": "http://www.nlm.nih.gov/research/umls/rxnorm"
                                }
                            ]
                        }
                    },
                    {
                        "code": {
                            "coding": [
                                {
                                    "code": "93044-6",
                                    "display": "Level of evidence",
                                    "system": "http://loinc.org"
                                }
                            ]
                        },
                        "valueCodeableConcept": {
                            "text": "CPIC Level A"
                        }
                    },
                    {
                        "code": {
                            "coding": [
                                {
                                    "code": "predicted-therapeutic-implication",
                                    "display": "predicted-therapeutic-implication",
                                    "system": "http://hl7.org/fhir/uv/genomics-reporting/CodeSystem/tbd-codes-cs"
                                }
                            ]
                        },
                        "valueCodeableConcept": {
                            "text": "CYP2C19 Rapid Metabolizer"
                        }
                    }
                ],
                "derivedFrom": [
                    {
                        "reference": "Observation/dv-61ccfd4a072302a0eb2115c3"
                    }
                ],
                "id": "dv-631a4ae012d58a72041f3ad0",
                "identifier": [
                    {
                        "system": "https://www.pharmgkb.org",
                        "value": "PA124"
                    }
                ],
                "meta": {
                    "profile": [
                        "http://hl7.org/fhir/uv/genomics-reporting/StructureDefinition/therapeutic-implication"
                    ]
                },
                "resourceType": "Observation",
                "status": "final",
                "subject": {
                    "reference": "Patient/NB6TK328"
                }
            }
        },
        {
            "name": "implication",
            "resource": {
                "category": [
                    {
                        "coding": [
                            {
                                "code": "laboratory",
                                "system": "http://terminology.hl7.org/CodeSystem/observation-category"
                            }
                        ]
                    }
                ],
                "code": {
                    "coding": [
                        {
                            "code": "therapeutic-implication",
                            "system": "http://hl7.org/fhir/uv/genomics-reporting/CodeSystem/tbd-codes-cs"
                        }
                    ]
                },
                "component": [
                    {
                        "code": {
                            "coding": [
                                {
                                    "code": "51963-7",
                                    "display": "medication-assessed",
                                    "system": "http://loinc.org"
                                }
                            ]
                        },
                        "valueCodeableConcept": {
                            "coding": [
                                {
                                    "code": "2556",
                                    "display": "Citalopram",
                                    "system": "http://www.nlm.nih.gov/research/umls/rxnorm"
                                }
                            ]
                        }
                    },
                    {
                        "code": {
                            "coding": [
                                {
                                    "code": "93044-6",
                                    "display": "Level of evidence",
                                    "system": "http://loinc.org"
                                }
                            ]
                        },
                        "valueCodeableConcept": {
                            "text": "CPIC Level A"
                        }
                    },
                    {
                        "code": {
                            "coding": [
                                {
                                    "code": "predicted-therapeutic-implication",
                                    "display": "predicted-therapeutic-implication",
                                    "system": "http://hl7.org/fhir/uv/genomics-reporting/CodeSystem/tbd-codes-cs"
                                }
                            ]
                        },
                        "valueCodeableConcept": {
                            "text": "CYP2C19 Rapid Metabolizer"
                        }
                    }
                ],
                "derivedFrom": [
                    {
                        "reference": "Observation/dv-61ccfd4a072302a0eb2115c3"
                    }
                ],
                "id": "dv-631a4ae012d58a72041f3abc",
                "identifier": [
                    {
                        "system": "https://www.pharmgkb.org",
                        "value": "PA124"
                    }
                ],
                "meta": {
                    "profile": [
                        "http://hl7.org/fhir/uv/genomics-reporting/StructureDefinition/therapeutic-implication"
                    ]
                },
                "resourceType": "Observation",
                "status": "final",
                "subject": {
                    "reference": "Patient/NB6TK328"
                }
            }
        },
        {
            "name": "implication",
            "resource": {
                "category": [
                    {
                        "coding": [
                            {
                                "code": "laboratory",
                                "system": "http://terminology.hl7.org/CodeSystem/observation-category"
                            }
                        ]
                    }
                ],
                "code": {
                    "coding": [
                        {
                            "code": "therapeutic-implication",
                            "system": "http://hl7.org/fhir/uv/genomics-reporting/CodeSystem/tbd-codes-cs"
                        }
                    ]
                },
                "component": [
                    {
                        "code": {
                            "coding": [
                                {
                                    "code": "51963-7",
                                    "display": "medication-assessed",
                                    "system": "http://loinc.org"
                                }
                            ]
                        },
                        "valueCodeableConcept": {
                            "coding": [
                                {
                                    "code": "26225",
                                    "display": "Ondansetron",
                                    "system": "http://www.nlm.nih.gov/research/umls/rxnorm"
                                }
                            ]
                        }
                    },
                    {
                        "code": {
                            "coding": [
                                {
                                    "code": "93044-6",
                                    "display": "Level of evidence",
                                    "system": "http://loinc.org"
                                }
                            ]
                        },
                        "valueCodeableConcept": {
                            "text": "CPIC Level A"
                        }
                    },
                    {
                        "code": {
                            "coding": [
                                {
                                    "code": "predicted-therapeutic-implication",
                                    "display": "predicted-therapeutic-implication",
                                    "system": "http://hl7.org/fhir/uv/genomics-reporting/CodeSystem/tbd-codes-cs"
                                }
                            ]
                        },
                        "valueCodeableConcept": {
                            "text": "Normal Metabolizer"
                        }
                    }
                ],
                "derivedFrom": [
                    {
                        "reference": "Observation/dv-61ccfd4a072302a0eb2115c6"
                    }
                ],
                "id": "dv-631a4ae712d58a72041f91a3",
                "identifier": [
                    {
                        "system": "https://www.pharmgkb.org",
                        "value": "PA128"
                    }
                ],
                "meta": {
                    "profile": [
                        "http://hl7.org/fhir/uv/genomics-reporting/StructureDefinition/therapeutic-implication"
                    ]
                },
                "resourceType": "Observation",
                "status": "final",
                "subject": {
                    "reference": "Patient/NB6TK328"
                }
            }
        },
        {
            "name": "implication",
            "resource": {
                "category": [
                    {
                        "coding": [
                            {
                                "code": "laboratory",
                                "system": "http://terminology.hl7.org/CodeSystem/observation-category"
                            }
                        ]
                    }
                ],
                "code": {
                    "coding": [
                        {
                            "code": "therapeutic-implication",
                            "system": "http://hl7.org/fhir/uv/genomics-reporting/CodeSystem/tbd-codes-cs"
                        }
                    ]
                },
                "component": [
                    {
                        "code": {
                            "coding": [
                                {
                                    "code": "51963-7",
                                    "display": "medication-assessed",
                                    "system": "http://loinc.org"
                                }
                            ]
                        },
                        "valueCodeableConcept": {
                            "coding": [
                                {
                                    "code": "2670",
                                    "display": "Codeine",
                                    "system": "http://www.nlm.nih.gov/research/umls/rxnorm"
                                }
                            ]
                        }
                    },
                    {
                        "code": {
                            "coding": [
                                {
                                    "code": "93044-6",
                                    "display": "Level of evidence",
                                    "system": "http://loinc.org"
                                }
                            ]
                        },
                        "valueCodeableConcept": {
                            "text": "CPIC Level A"
                        }
                    },
                    {
                        "code": {
                            "coding": [
                                {
                                    "code": "predicted-therapeutic-implication",
                                    "display": "predicted-therapeutic-implication",
                                    "system": "http://hl7.org/fhir/uv/genomics-reporting/CodeSystem/tbd-codes-cs"
                                }
                            ]
                        },
                        "valueCodeableConcept": {
                            "text": "Normal Metabolizer"
                        }
                    }
                ],
                "derivedFrom": [
                    {
                        "reference": "Observation/dv-61ccfd4a072302a0eb2115c6"
                    }
                ],
                "id": "dv-631a4ae712d58a72041f91a1",
                "identifier": [
                    {
                        "system": "https://www.pharmgkb.org",
                        "value": "PA128"
                    }
                ],
                "meta": {
                    "profile": [
                        "http://hl7.org/fhir/uv/genomics-reporting/StructureDefinition/therapeutic-implication"
                    ]
                },
                "resourceType": "Observation",
                "status": "final",
                "subject": {
                    "reference": "Patient/NB6TK328"
                }
            }
        },
        {
            "name": "implication",
            "resource": {
                "category": [
                    {
                        "coding": [
                            {
                                "code": "laboratory",
                                "system": "http://terminology.hl7.org/CodeSystem/observation-category"
                            }
                        ]
                    }
                ],
                "code": {
                    "coding": [
                        {
                            "code": "therapeutic-implication",
                            "system": "http://hl7.org/fhir/uv/genomics-reporting/CodeSystem/tbd-codes-cs"
                        }
                    ]
                },
                "component": [
                    {
                        "code": {
                            "coding": [
                                {
                                    "code": "51963-7",
                                    "display": "medication-assessed",
                                    "system": "http://loinc.org"
                                }
                            ]
                        },
                        "valueCodeableConcept": {
                            "coding": [
                                {
                                    "code": "27392",
                                    "display": "tropisetron",
                                    "system": "http://www.nlm.nih.gov/research/umls/rxnorm"
                                }
                            ]
                        }
                    },
                    {
                        "code": {
                            "coding": [
                                {
                                    "code": "93044-6",
                                    "display": "Level of evidence",
                                    "system": "http://loinc.org"
                                }
                            ]
                        },
                        "valueCodeableConcept": {
                            "text": "CPIC Level A"
                        }
                    },
                    {
                        "code": {
                            "coding": [
                                {
                                    "code": "predicted-therapeutic-implication",
                                    "display": "predicted-therapeutic-implication",
                                    "system": "http://hl7.org/fhir/uv/genomics-reporting/CodeSystem/tbd-codes-cs"
                                }
                            ]
                        },
                        "valueCodeableConcept": {
                            "text": "Normal Metabolizer"
                        }
                    }
                ],
                "derivedFrom": [
                    {
                        "reference": "Observation/dv-61ccfd4a072302a0eb2115c6"
                    }
                ],
                "id": "dv-631a4ae712d58a72041f91af",
                "identifier": [
                    {
                        "system": "https://www.pharmgkb.org",
                        "value": "PA128"
                    }
                ],
                "meta": {
                    "profile": [
                        "http://hl7.org/fhir/uv/genomics-reporting/StructureDefinition/therapeutic-implication"
                    ]
                },
                "resourceType": "Observation",
                "status": "final",
                "subject": {
                    "reference": "Patient/NB6TK328"
                }
            }
        },
        {
            "name": "implication",
            "resource": {
                "category": [
                    {
                        "coding": [
                            {
                                "code": "laboratory",
                                "system": "http://terminology.hl7.org/CodeSystem/observation-category"
                            }
                        ]
                    }
                ],
                "code": {
                    "coding": [
                        {
                            "code": "therapeutic-implication",
                            "system": "http://hl7.org/fhir/uv/genomics-reporting/CodeSystem/tbd-codes-cs"
                        }
                    ]
                },
                "component": [
                    {
                        "code": {
                            "coding": [
                                {
                                    "code": "51963-7",
                                    "display": "medication-assessed",
                                    "system": "http://loinc.org"
                                }
                            ]
                        },
                        "valueCodeableConcept": {
                            "coding": [
                                {
                                    "code": "321988",
                                    "display": "Escitalopram",
                                    "system": "http://www.nlm.nih.gov/research/umls/rxnorm"
                                }
                            ]
                        }
                    },
                    {
                        "code": {
                            "coding": [
                                {
                                    "code": "93044-6",
                                    "display": "Level of evidence",
                                    "system": "http://loinc.org"
                                }
                            ]
                        },
                        "valueCodeableConcept": {
                            "text": "CPIC Level A"
                        }
                    },
                    {
                        "code": {
                            "coding": [
                                {
                                    "code": "predicted-therapeutic-implication",
                                    "display": "predicted-therapeutic-implication",
                                    "system": "http://hl7.org/fhir/uv/genomics-reporting/CodeSystem/tbd-codes-cs"
                                }
                            ]
                        },
                        "valueCodeableConcept": {
                            "text": "CYP2C19 Rapid Metabolizer"
                        }
                    }
                ],
                "derivedFrom": [
                    {
                        "reference": "Observation/dv-61ccfd4a072302a0eb2115c3"
                    }
                ],
                "id": "dv-631a4ae012d58a72041f3ac2",
                "identifier": [
                    {
                        "system": "https://www.pharmgkb.org",
                        "value": "PA124"
                    }
                ],
                "meta": {
                    "profile": [
                        "http://hl7.org/fhir/uv/genomics-reporting/StructureDefinition/therapeutic-implication"
                    ]
                },
                "resourceType": "Observation",
                "status": "final",
                "subject": {
                    "reference": "Patient/NB6TK328"
                }
            }
        },
        {
            "name": "implication",
            "resource": {
                "category": [
                    {
                        "coding": [
                            {
                                "code": "laboratory",
                                "system": "http://terminology.hl7.org/CodeSystem/observation-category"
                            }
                        ]
                    }
                ],
                "code": {
                    "coding": [
                        {
                            "code": "therapeutic-implication",
                            "system": "http://hl7.org/fhir/uv/genomics-reporting/CodeSystem/tbd-codes-cs"
                        }
                    ]
                },
                "component": [
                    {
                        "code": {
                            "coding": [
                                {
                                    "code": "51963-7",
                                    "display": "medication-assessed",
                                    "system": "http://loinc.org"
                                }
                            ]
                        },
                        "valueCodeableConcept": {
                            "coding": [
                                {
                                    "code": "32937",
                                    "display": "Paroxetine",
                                    "system": "http://www.nlm.nih.gov/research/umls/rxnorm"
                                }
                            ]
                        }
                    },
                    {
                        "code": {
                            "coding": [
                                {
                                    "code": "93044-6",
                                    "display": "Level of evidence",
                                    "system": "http://loinc.org"
                                }
                            ]
                        },
                        "valueCodeableConcept": {
                            "text": "CPIC Level A"
                        }
                    },
                    {
                        "code": {
                            "coding": [
                                {
                                    "code": "predicted-therapeutic-implication",
                                    "display": "predicted-therapeutic-implication",
                                    "system": "http://hl7.org/fhir/uv/genomics-reporting/CodeSystem/tbd-codes-cs"
                                }
                            ]
                        },
                        "valueCodeableConcept": {
                            "text": "Normal Metabolizer"
                        }
                    }
                ],
                "derivedFrom": [
                    {
                        "reference": "Observation/dv-61ccfd4a072302a0eb2115c6"
                    }
                ],
                "id": "dv-631a4ae712d58a72041f91a5",
                "identifier": [
                    {
                        "system": "https://www.pharmgkb.org",
                        "value": "PA128"
                    }
                ],
                "meta": {
                    "profile": [
                        "http://hl7.org/fhir/uv/genomics-reporting/StructureDefinition/therapeutic-implication"
                    ]
                },
                "resourceType": "Observation",
                "status": "final",
                "subject": {
                    "reference": "Patient/NB6TK328"
                }
            }
        },
        {
            "name": "implication",
            "resource": {
                "category": [
                    {
                        "coding": [
                            {
                                "code": "laboratory",
                                "system": "http://terminology.hl7.org/CodeSystem/observation-category"
                            }
                        ]
                    }
                ],
                "code": {
                    "coding": [
                        {
                            "code": "therapeutic-implication",
                            "system": "http://hl7.org/fhir/uv/genomics-reporting/CodeSystem/tbd-codes-cs"
                        }
                    ]
                },
                "component": [
                    {
                        "code": {
                            "coding": [
                                {
                                    "code": "51963-7",
                                    "display": "medication-assessed",
                                    "system": "http://loinc.org"
                                }
                            ]
                        },
                        "valueCodeableConcept": {
                            "coding": [
                                {
                                    "code": "32968",
                                    "display": "clopidogrel",
                                    "system": "http://www.nlm.nih.gov/research/umls/rxnorm"
                                }
                            ]
                        }
                    },
                    {
                        "code": {
                            "coding": [
                                {
                                    "code": "93044-6",
                                    "display": "Level of evidence",
                                    "system": "http://loinc.org"
                                }
                            ]
                        },
                        "valueCodeableConcept": {
                            "text": "CPIC Level A"
                        }
                    },
                    {
                        "code": {
                            "coding": [
                                {
                                    "code": "predicted-therapeutic-implication",
                                    "display": "predicted-therapeutic-implication",
                                    "system": "http://hl7.org/fhir/uv/genomics-reporting/CodeSystem/tbd-codes-cs"
                                }
                            ]
                        },
                        "valueCodeableConcept": {
                            "text": "CYP2C19 Rapid Metabolizer"
                        }
                    }
                ],
                "derivedFrom": [
                    {
                        "reference": "Observation/dv-61ccfd4a072302a0eb2115c3"
                    }
                ],
                "id": "dv-631a4ae012d58a72041f3abb",
                "identifier": [
                    {
                        "system": "https://www.pharmgkb.org",
                        "value": "PA124"
                    }
                ],
                "meta": {
                    "profile": [
                        "http://hl7.org/fhir/uv/genomics-reporting/StructureDefinition/therapeutic-implication"
                    ]
                },
                "resourceType": "Observation",
                "status": "final",
                "subject": {
                    "reference": "Patient/NB6TK328"
                }
            }
        },
        {
            "name": "implication",
            "resource": {
                "category": [
                    {
                        "coding": [
                            {
                                "code": "laboratory",
                                "system": "http://terminology.hl7.org/CodeSystem/observation-category"
                            }
                        ]
                    }
                ],
                "code": {
                    "coding": [
                        {
                            "code": "therapeutic-implication",
                            "system": "http://hl7.org/fhir/uv/genomics-reporting/CodeSystem/tbd-codes-cs"
                        }
                    ]
                },
                "component": [
                    {
                        "code": {
                            "coding": [
                                {
                                    "code": "51963-7",
                                    "display": "medication-assessed",
                                    "system": "http://loinc.org"
                                }
                            ]
                        },
                        "valueCodeableConcept": {
                            "coding": [
                                {
                                    "code": "38400",
                                    "display": "atomoxetine",
                                    "system": "http://www.nlm.nih.gov/research/umls/rxnorm"
                                }
                            ]
                        }
                    },
                    {
                        "code": {
                            "coding": [
                                {
                                    "code": "93044-6",
                                    "display": "Level of evidence",
                                    "system": "http://loinc.org"
                                }
                            ]
                        },
                        "valueCodeableConcept": {
                            "text": "CPIC Level A"
                        }
                    },
                    {
                        "code": {
                            "coding": [
                                {
                                    "code": "predicted-therapeutic-implication",
                                    "display": "predicted-therapeutic-implication",
                                    "system": "http://hl7.org/fhir/uv/genomics-reporting/CodeSystem/tbd-codes-cs"
                                }
                            ]
                        },
                        "valueCodeableConcept": {
                            "text": "Normal Metabolizer"
                        }
                    }
                ],
                "derivedFrom": [
                    {
                        "reference": "Observation/dv-61ccfd4a072302a0eb2115c6"
                    }
                ],
                "id": "dv-631a4ae712d58a72041f91aa",
                "identifier": [
                    {
                        "system": "https://www.pharmgkb.org",
                        "value": "PA128"
                    }
                ],
                "meta": {
                    "profile": [
                        "http://hl7.org/fhir/uv/genomics-reporting/StructureDefinition/therapeutic-implication"
                    ]
                },
                "resourceType": "Observation",
                "status": "final",
                "subject": {
                    "reference": "Patient/NB6TK328"
                }
            }
        },
        {
            "name": "implication",
            "resource": {
                "category": [
                    {
                        "coding": [
                            {
                                "code": "laboratory",
                                "system": "http://terminology.hl7.org/CodeSystem/observation-category"
                            }
                        ]
                    }
                ],
                "code": {
                    "coding": [
                        {
                            "code": "therapeutic-implication",
                            "system": "http://hl7.org/fhir/uv/genomics-reporting/CodeSystem/tbd-codes-cs"
                        }
                    ]
                },
                "component": [
                    {
                        "code": {
                            "coding": [
                                {
                                    "code": "51963-7",
                                    "display": "medication-assessed",
                                    "system": "http://loinc.org"
                                }
                            ]
                        },
                        "valueCodeableConcept": {
                            "coding": [
                                {
                                    "code": "42355",
                                    "display": "Fluvoxamine",
                                    "system": "http://www.nlm.nih.gov/research/umls/rxnorm"
                                }
                            ]
                        }
                    },
                    {
                        "code": {
                            "coding": [
                                {
                                    "code": "93044-6",
                                    "display": "Level of evidence",
                                    "system": "http://loinc.org"
                                }
                            ]
                        },
                        "valueCodeableConcept": {
                            "text": "CPIC Level A"
                        }
                    },
                    {
                        "code": {
                            "coding": [
                                {
                                    "code": "predicted-therapeutic-implication",
                                    "display": "predicted-therapeutic-implication",
                                    "system": "http://hl7.org/fhir/uv/genomics-reporting/CodeSystem/tbd-codes-cs"
                                }
                            ]
                        },
                        "valueCodeableConcept": {
                            "text": "Normal Metabolizer"
                        }
                    }
                ],
                "derivedFrom": [
                    {
                        "reference": "Observation/dv-61ccfd4a072302a0eb2115c6"
                    }
                ],
                "id": "dv-631a4ae712d58a72041f91a2",
                "identifier": [
                    {
                        "system": "https://www.pharmgkb.org",
                        "value": "PA128"
                    }
                ],
                "meta": {
                    "profile": [
                        "http://hl7.org/fhir/uv/genomics-reporting/StructureDefinition/therapeutic-implication"
                    ]
                },
                "resourceType": "Observation",
                "status": "final",
                "subject": {
                    "reference": "Patient/NB6TK328"
                }
            }
        },
        {
            "name": "implication",
            "resource": {
                "category": [
                    {
                        "coding": [
                            {
                                "code": "laboratory",
                                "system": "http://terminology.hl7.org/CodeSystem/observation-category"
                            }
                        ]
                    }
                ],
                "code": {
                    "coding": [
                        {
                            "code": "therapeutic-implication",
                            "system": "http://hl7.org/fhir/uv/genomics-reporting/CodeSystem/tbd-codes-cs"
                        }
                    ]
                },
                "component": [
                    {
                        "code": {
                            "coding": [
                                {
                                    "code": "51963-7",
                                    "display": "medication-assessed",
                                    "system": "http://loinc.org"
                                }
                            ]
                        },
                        "valueCodeableConcept": {
                            "coding": [
                                {
                                    "code": "704",
                                    "display": "Amitriptyline",
                                    "system": "http://www.nlm.nih.gov/research/umls/rxnorm"
                                }
                            ]
                        }
                    },
                    {
                        "code": {
                            "coding": [
                                {
                                    "code": "93044-6",
                                    "display": "Level of evidence",
                                    "system": "http://loinc.org"
                                }
                            ]
                        },
                        "valueCodeableConcept": {
                            "text": "CPIC Level A"
                        }
                    },
                    {
                        "code": {
                            "coding": [
                                {
                                    "code": "predicted-therapeutic-implication",
                                    "display": "predicted-therapeutic-implication",
                                    "system": "http://hl7.org/fhir/uv/genomics-reporting/CodeSystem/tbd-codes-cs"
                                }
                            ]
                        },
                        "valueCodeableConcept": {
                            "text": "CYP2C19 Rapid Metabolizer"
                        }
                    }
                ],
                "derivedFrom": [
                    {
                        "reference": "Observation/dv-61ccfd4a072302a0eb2115c3"
                    }
                ],
                "id": "dv-631a4ae012d58a72041f3aba",
                "identifier": [
                    {
                        "system": "https://www.pharmgkb.org",
                        "value": "PA124"
                    }
                ],
                "meta": {
                    "profile": [
                        "http://hl7.org/fhir/uv/genomics-reporting/StructureDefinition/therapeutic-implication"
                    ]
                },
                "resourceType": "Observation",
                "status": "final",
                "subject": {
                    "reference": "Patient/NB6TK328"
                }
            }
        },
        {
            "name": "implication",
            "resource": {
                "category": [
                    {
                        "coding": [
                            {
                                "code": "laboratory",
                                "system": "http://terminology.hl7.org/CodeSystem/observation-category"
                            }
                        ]
                    }
                ],
                "code": {
                    "coding": [
                        {
                            "code": "therapeutic-implication",
                            "system": "http://hl7.org/fhir/uv/genomics-reporting/CodeSystem/tbd-codes-cs"
                        }
                    ]
                },
                "component": [
                    {
                        "code": {
                            "coding": [
                                {
                                    "code": "51963-7",
                                    "display": "medication-assessed",
                                    "system": "http://loinc.org"
                                }
                            ]
                        },
                        "valueCodeableConcept": {
                            "coding": [
                                {
                                    "code": "704",
                                    "display": "Amitriptyline",
                                    "system": "http://www.nlm.nih.gov/research/umls/rxnorm"
                                }
                            ]
                        }
                    },
                    {
                        "code": {
                            "coding": [
                                {
                                    "code": "93044-6",
                                    "display": "Level of evidence",
                                    "system": "http://loinc.org"
                                }
                            ]
                        },
                        "valueCodeableConcept": {
                            "text": "CPIC Level A"
                        }
                    },
                    {
                        "code": {
                            "coding": [
                                {
                                    "code": "predicted-therapeutic-implication",
                                    "display": "predicted-therapeutic-implication",
                                    "system": "http://hl7.org/fhir/uv/genomics-reporting/CodeSystem/tbd-codes-cs"
                                }
                            ]
                        },
                        "valueCodeableConcept": {
                            "text": "Normal Metabolizer"
                        }
                    }
                ],
                "derivedFrom": [
                    {
                        "reference": "Observation/dv-61ccfd4a072302a0eb2115c6"
                    }
                ],
                "id": "dv-631a4ae712d58a72041f91ac",
                "identifier": [
                    {
                        "system": "https://www.pharmgkb.org",
                        "value": "PA128"
                    }
                ],
                "meta": {
                    "profile": [
                        "http://hl7.org/fhir/uv/genomics-reporting/StructureDefinition/therapeutic-implication"
                    ]
                },
                "resourceType": "Observation",
                "status": "final",
                "subject": {
                    "reference": "Patient/NB6TK328"
                }
            }
        },
        {
            "name": "implication",
            "resource": {
                "category": [
                    {
                        "coding": [
                            {
                                "code": "laboratory",
                                "system": "http://terminology.hl7.org/CodeSystem/observation-category"
                            }
                        ]
                    }
                ],
                "code": {
                    "coding": [
                        {
                            "code": "therapeutic-implication",
                            "system": "http://hl7.org/fhir/uv/genomics-reporting/CodeSystem/tbd-codes-cs"
                        }
                    ]
                },
                "component": [
                    {
                        "code": {
                            "coding": [
                                {
                                    "code": "51963-7",
                                    "display": "medication-assessed",
                                    "system": "http://loinc.org"
                                }
                            ]
                        },
                        "valueCodeableConcept": {
                            "coding": [
                                {
                                    "code": "7531",
                                    "display": "Nortriptyline",
                                    "system": "http://www.nlm.nih.gov/research/umls/rxnorm"
                                }
                            ]
                        }
                    },
                    {
                        "code": {
                            "coding": [
                                {
                                    "code": "93044-6",
                                    "display": "Level of evidence",
                                    "system": "http://loinc.org"
                                }
                            ]
                        },
                        "valueCodeableConcept": {
                            "text": "CPIC Level A"
                        }
                    },
                    {
                        "code": {
                            "coding": [
                                {
                                    "code": "predicted-therapeutic-implication",
                                    "display": "predicted-therapeutic-implication",
                                    "system": "http://hl7.org/fhir/uv/genomics-reporting/CodeSystem/tbd-codes-cs"
                                }
                            ]
                        },
                        "valueCodeableConcept": {
                            "text": "Normal Metabolizer"
                        }
                    }
                ],
                "derivedFrom": [
                    {
                        "reference": "Observation/dv-61ccfd4a072302a0eb2115c6"
                    }
                ],
                "id": "dv-631a4ae712d58a72041f91a8",
                "identifier": [
                    {
                        "system": "https://www.pharmgkb.org",
                        "value": "PA128"
                    }
                ],
                "meta": {
                    "profile": [
                        "http://hl7.org/fhir/uv/genomics-reporting/StructureDefinition/therapeutic-implication"
                    ]
                },
                "resourceType": "Observation",
                "status": "final",
                "subject": {
                    "reference": "Patient/NB6TK328"
                }
            }
        },
        {
            "name": "implication",
            "resource": {
                "category": [
                    {
                        "coding": [
                            {
                                "code": "laboratory",
                                "system": "http://terminology.hl7.org/CodeSystem/observation-category"
                            }
                        ]
                    }
                ],
                "code": {
                    "coding": [
                        {
                            "code": "therapeutic-implication",
                            "system": "http://hl7.org/fhir/uv/genomics-reporting/CodeSystem/tbd-codes-cs"
                        }
                    ]
                },
                "component": [
                    {
                        "code": {
                            "coding": [
                                {
                                    "code": "51963-7",
                                    "display": "medication-assessed",
                                    "system": "http://loinc.org"
                                }
                            ]
                        },
                        "valueCodeableConcept": {
                            "coding": [
                                {
                                    "code": "7804",
                                    "display": "Oxycodone",
                                    "system": "http://www.nlm.nih.gov/research/umls/rxnorm"
                                }
                            ]
                        }
                    },
                    {
                        "code": {
                            "coding": [
                                {
                                    "code": "93044-6",
                                    "display": "Level of evidence",
                                    "system": "http://loinc.org"
                                }
                            ]
                        },
                        "valueCodeableConcept": {
                            "text": "CPIC Level A"
                        }
                    },
                    {
                        "code": {
                            "coding": [
                                {
                                    "code": "predicted-therapeutic-implication",
                                    "display": "predicted-therapeutic-implication",
                                    "system": "http://hl7.org/fhir/uv/genomics-reporting/CodeSystem/tbd-codes-cs"
                                }
                            ]
                        },
                        "valueCodeableConcept": {
                            "text": "Normal Metabolizer"
                        }
                    }
                ],
                "derivedFrom": [
                    {
                        "reference": "Observation/dv-61ccfd4a072302a0eb2115c6"
                    }
                ],
                "id": "dv-631a4ae712d58a72041f91ad",
                "identifier": [
                    {
                        "system": "https://www.pharmgkb.org",
                        "value": "PA128"
                    }
                ],
                "meta": {
                    "profile": [
                        "http://hl7.org/fhir/uv/genomics-reporting/StructureDefinition/therapeutic-implication"
                    ]
                },
                "resourceType": "Observation",
                "status": "final",
                "subject": {
                    "reference": "Patient/NB6TK328"
                }
            }
        }
    ],
    "resourceType": "Parameters"
}