{
    "parameter": [
        {
            "name": "variants",
            "part": [
                {
                    "name": "presence",
                    "valueBoolean": true
                },
                {
                    "name": "rangeItem",
                    "valueString": "NC_000001.11:2629432-2629470"
                },
                {
                    "name": "sequencePhaseRelationship",
                    "resource": {
                        "category": [
                            {
                                "coding": [
                                    {
                                        "code": "laboratory",
                                        "system": "http://terminology.hl7.org/CodeSystem/observation-category"
                                    }
                                ]
                            }
                        ],
                        "code": {
                            "coding": [
                                {
                                    "code": "82120-7",
                                    "display": "Allelic phase",
                                    "system": "http://loinc.org"
                                }
                            ]
                        },
                        "derivedFrom": [
                            {
                                "reference": "Observation/dv-0ff7e9652c4a466ea69b705261adc0f8"
                            },
                            {
                                "reference": "Observation/dv-2d4c28cebcc840dd98e7a62890cde178"
                            }
                        ],
                        "id": "sid-666243c731064e36481992ea",
                        "meta": {
                            "profile": [
                                "http://hl7.org/fhir/uv/genomics-reporting/StructureDefinition/sequence-phase-relationship"
                            ]
                        },
                        "resourceType": "Observation",
                        "status": "final",
                        "subject": {
                            "reference": "Patient/NB6TK329"
                        },
                        "valueCodeableConcept": {
                            "coding": [
                                {
                                    "code": "Cis",
                                    "display": "Cis",
                                    "system": "http://hl7.org/fhir/uv/genomics-reporting/CodeSystem/sequence-phase-relationship-cs"
                                }
                            ]
                        }
                    }
                },
                {
                    "name": "variant",
                    "resource": {
                        "category": [
                            {
                                "coding": [
                                    {
                                        "code": "laboratory",
                                        "system": "http://terminology.hl7.org/CodeSystem/observation-category"
                                    }
                                ]
                            }
                        ],
                        "code": {
                            "coding": [
                                {
                                    "code": "69548-6",
                                    "display": "Genetic variant assessment",
                                    "system": "http://loinc.org"
                                }
                            ]
                        },
                        "component": [
                            {
                                "code": {
                                    "coding": [
                                        {
                                            "code": "48002-0",
                                            "display": "Genomic Source Class",
                                            "system": "http://loinc.org"
                                        }
                                    ]
                                },
                                "valueCodeableConcept": {
                                    "coding": [
                                        {
                                            "code": "LA6683-2",
                                            "display": "germline",
                                            "system": "http://loinc.org"
                                        }
                                    ]
                                }
                            },
                            {
                                "code": {
                                    "coding": [
                                        {
                                            "code": "48013-7",
                                            "display": "Genomic reference sequence ID",
                                            "system": "http://loinc.org"
                                        }
                                    ]
                                },
                                "valueCodeableConcept": {
                                    "coding": [
                                        {
                                            "code": "NC_000001.11",
                                            "system": "http://www.ncbi.nlm.nih.gov/nuccore"
                                        }
                                    ]
                                }
                            },
                            {
                                "code": {
                                    "coding": [
                                        {
                                            "code": "53034-5",
                                            "display": "Allelic state",
                                            "system": "http://loinc.org"
                                        }
                                    ]
                                },
                                "valueCodeableConcept": {
                                    "coding": [
                                        {
                                            "code": "LA6706-1",
                                            "display": "heterozygous",
                                            "system": "http://loinc.org"
                                        }
                                    ]
                                }
                            },
                            {
                                "code": {
                                    "coding": [
                                        {
                                            "code": "69547-8",
                                            "display": "Genomic Ref allele [ID]",
                                            "system": "http://loinc.org"
                                        }
                                    ]
                                },
                                "valueString": "G"
                            },
                            {
                                "code": {
                                    "coding": [
                                        {
                                            "code": "69551-0",
                                            "display": "Genomic Alt allele [ID]",
                                            "system": "http://loinc.org"
                                        }
                                    ]
                                },
                                "valueString": "A"
                            },
                            {
                                "code": {
                                    "coding": [
                                        {
                                            "code": "81252-9",
                                            "display": "Discrete genetic variant",
                                            "system": "http://loinc.org"
                                        }
                                    ]
                                },
                                "valueCodeableConcept": {
                                    "coding": [
                                        {
                                            "code": "NC_000001.11:2629442:G:A",
                                            "display": "NC_000001.11:2629442:G:A",
                                            "system": "https://api.ncbi.nlm.nih.gov/variation/v0/"
                                        }
                                    ]
                                }
                            },
                            {
                                "code": {
                                    "coding": [
                                        {
                                            "code": "81254-5",
                                            "display": "Variant exact start-end",
                                            "system": "http://loinc.org"
                                        }
                                    ]
                                },
                                "valueRange": {
                                    "low": {
                                        "value": 2629442
                                    }
                                }
                            },
                            {
                                "code": {
                                    "coding": [
                                        {
                                            "code": "81258-6",
                                            "display": "Sample VAF",
                                            "system": "http://loinc.org"
                                        }
                                    ]
                                },
                                "valueQuantity": {
                                    "code": "1",
                                    "system": "http://unitsofmeasure.org",
                                    "unit": "relative frequency of a particular allele in the specimen",
                                    "value": 0.5
                                }
                            },
                            {
                                "code": {
                                    "coding": [
                                        {
                                            "code": "92821-8",
                                            "display": "Population allele frequency",
                                            "system": "http://loinc.org"
                                        }
                                    ]
                                },
                                "valueQuantity": {
                                    "code": "1",
                                    "system": "http://unitsofmeasure.org",
                                    "value": 0.58297
                                }
                            },
                            {
                                "code": {
                                    "coding": [
                                        {
                                            "code": "92822-6",
                                            "display": "Genomic coord system",
                                            "system": "http://loinc.org"
                                        }
                                    ]
                                },
                                "valueCodeableConcept": {
                                    "coding": [
                                        {
                                            "code": "LA30100-4",
                                            "display": "0-based interval counting",
                                            "system": "http://loinc.org"
                                        }
                                    ]
                                }
                            }
                        ],
                        "id": "dv-0ff7e9652c4a466ea69b705261adc0f8",
                        "meta": {
                            "profile": [
                                "http://hl7.org/fhir/uv/genomics-reporting/StructureDefinition/variant"
                            ]
                        },
                        "resourceType": "Observation",
                        "status": "final",
                        "subject": {
                            "reference": "Patient/NB6TK329"
                        },
                        "valueCodeableConcept": {
                            "coding": [
                                {
                                    "code": "LA9633-4",
                                    "display": "present",
                                    "system": "http://loinc.org"
                                }
                            ]
                        }
                    }
                },
                {
                    "name": "variant",
                    "resource": {
                        "category": [
                            {
                                "coding": [
                                    {
                                        "code": "laboratory",
                                        "system": "http://terminology.hl7.org/CodeSystem/observation-category"
                                    }
                                ]
                            }
                        ],
                        "code": {
                            "coding": [
                                {
                                    "code": "69548-6",
                                    "display": "Genetic variant assessment",
                                    "system": "http://loinc.org"
                                }
                            ]
                        },
                        "component": [
                            {
                                "code": {
                                    "coding": [
                                        {
                                            "code": "48002-0",
                                            "display": "Genomic Source Class",
                                            "system": "http://loinc.org"
                                        }
                                    ]
                                },
                                "valueCodeableConcept": {
                                    "coding": [
                                        {
                                            "code": "LA6683-2",
                                            "display": "germline",
                                            "system": "http://loinc.org"
                                        }
                                    ]
                                }
                            },
                            {
                                "code": {
                                    "coding": [
                                        {
                                            "code": "48013-7",
                                            "display": "Genomic reference sequence ID",
                                            "system": "http://loinc.org"
                                        }
                                    ]
                                },
                                "valueCodeableConcept": {
                                    "coding": [
                                        {
                                            "code": "NC_000001.11",
                                            "system": "http://www.ncbi.nlm.nih.gov/nuccore"
                                        }
                                    ]
                                }
                            },
                            {
                                "code": {
                                    "coding": [
                                        {
                                            "code": "53034-5",
                                            "display": "Allelic state",
                                            "system": "http://loinc.org"
                                        }
                                    ]
                                },
                                "valueCodeableConcept": {
                                    "coding": [
                                        {
                                            "code": "LA6706-1",
                                            "display": "heterozygous",
                                            "system": "http://loinc.org"
                                        }
                                    ]
                                }
                            },
                            {
                                "code": {
                                    "coding": [
                                        {
                                            "code": "69547-8",
                                            "display": "Genomic Ref allele [ID]",
                                            "system": "http://loinc.org"
                                        }
                                    ]
                                },
                                "valueString": "T"
                            },
                            {
                                "code": {
                                    "coding": [
                                        {
                                            "code": "69551-0",
                                            "display": "Genomic Alt allele [ID]",
                                            "system": "http://loinc.org"
                                        }
                                    ]
                                },
                                "valueString": "G"
                            },
                            {
                                "code": {
                                    "coding": [
                                        {
                                            "code": "81252-9",
                                            "display": "Discrete genetic variant",
                                            "system": "http://loinc.org"
                                        }
                                    ]
                                },
                                "valueCodeableConcept": {
                                    "coding": [
                                        {
                                            "code": "NC_000001.11:2629463:T:G",
                                            "display": "NC_000001.11:2629463:T:G",
                                            "system": "https://api.ncbi.nlm.nih.gov/variation/v0/"
                                        }
                                    ]
                                }
                            },
                            {
                                "code": {
                                    "coding": [
                                        {
                                            "code": "81254-5",
                                            "display": "Variant exact start-end",
                                            "system": "http://loinc.org"
                                        }
                                    ]
                                },
                                "valueRange": {
                                    "low": {
                                        "value": 2629463
                                    }
                                }
                            },
                            {
                                "code": {
                                    "coding": [
                                        {
                                            "code": "81258-6",
                                            "display": "Sample VAF",
                                            "system": "http://loinc.org"
                                        }
                                    ]
                                },
                                "valueQuantity": {
                                    "code": "1",
                                    "system": "http://unitsofmeasure.org",
                                    "unit": "relative frequency of a particular allele in the specimen",
                                    "value": 0.5
                                }
                            },
                            {
                                "code": {
                                    "coding": [
                                        {
                                            "code": "92821-8",
                                            "display": "Population allele frequency",
                                            "system": "http://loinc.org"
                                        }
                                    ]
                                },
                                "valueQuantity": {
                                    "code": "1",
                                    "system": "http://unitsofmeasure.org",
                                    "value": 0.600482
                                }
                            },
                            {
                                "code": {
                                    "coding": [
                                        {
                                            "code": "92822-6",
                                            "display": "Genomic coord system",
                                            "system": "http://loinc.org"
                                        }
                                    ]
                                },
                                "valueCodeableConcept": {
                                    "coding": [
                                        {
                                            "code": "LA30100-4",
                                            "display": "0-based interval counting",
                                            "system": "http://loinc.org"
                                        }
                                    ]
                                }
                            }
                        ],
                        "id": "dv-2d4c28cebcc840dd98e7a62890cde178",
                        "meta": {
                            "profile": [
                                "http://hl7.org/fhir/uv/genomics-reporting/StructureDefinition/variant"
                            ]
                        },
                        "resourceType": "Observation",
                        "status": "final",
                        "subject": {
                            "reference": "Patient/NB6TK329"
                        },
                        "valueCodeableConcept": {
                            "coding": [
                                {
                                    "code": "LA9633-4",
                                    "display": "present",
                                    "system": "http://loinc.org"
                                }
                            ]
                        }
                    }
                }
            ]
        }
    ],
    "resourceType": "Parameters"
}