{
    "parameter": [
        {
            "name": "implication",
            "resource": {
                "category": [
                    {
                        "coding": [
                            {
                                "code": "laboratory",
                                "system": "http://terminology.hl7.org/CodeSystem/observation-category"
                            }
                        ]
                    }
                ],
                "code": {
                    "coding": [
                        {
                            "code": "diagnostic-implication",
                            "system": "http://hl7.org/fhir/uv/genomics-reporting/CodeSystem/tbd-codes-cs"
                        }
                    ]
                },
                "component": [
                    {
                        "code": {
                            "coding": [
                                {
                                    "code": "53037-8",
                                    "display": "Genetic variation clinical significance",
                                    "system": "http://loinc.org"
                                }
                            ]
                        },
                        "valueCodeableConcept": {
                            "coding": [
                                {
                                    "code": "LA26333-7",
                                    "display": "Uncertain significance",
                                    "system": "http://loinc.org"
                                }
                            ]
                        }
                    },
                    {
                        "code": {
                            "coding": [
                                {
                                    "code": "81259-4",
                                    "display": "predicted phenotype",
                                    "system": "http://loinc.org"
                                }
                            ]
                        },
                        "valueCodeableConcept": {
                            "coding": [
                                {
                                    "code": "C1708353",
                                    "display": "Hereditary pheochromocytoma-paraganglioma",
                                    "system": "https://www.ncbi.nlm.nih.gov/medgen"
                                }
                            ]
                        }
                    },
                    {
                        "code": {
                            "coding": [
                                {
                                    "code": "93044-6",
                                    "display": "Level of evidence",
                                    "system": "http://loinc.org"
                                }
                            ]
                        },
                        "valueCodeableConcept": {
                            "text": "criteria provided, single submitter"
                        }
                    }
                ],
                "derivedFrom": [
                    {
                        "reference": "Observation/dv-aad8639bd558470a9ca8612eae011065"
                    }
                ],
                "id": "dv-62fab6f25932091e78c68d2f",
                "identifier": [
                    {
                        "system": "http://www.ncbi.nlm.nih.gov/clinvar",
                        "value": "873683"
                    },
                    {
                        "system": "http://www.ncbi.nlm.nih.gov/clinvar/scv",
                        "value": "SCV001252233.1"
                    }
                ],
                "meta": {
                    "profile": [
                        "http://hl7.org/fhir/uv/genomics-reporting/StructureDefinition/diagnostic-implication"
                    ]
                },
                "resourceType": "Observation",
                "status": "final",
                "subject": {
                    "reference": "Patient/huC30902"
                }
            }
        },
        {
            "name": "implication",
            "resource": {
                "category": [
                    {
                        "coding": [
                            {
                                "code": "laboratory",
                                "system": "http://terminology.hl7.org/CodeSystem/observation-category"
                            }
                        ]
                    }
                ],
                "code": {
                    "coding": [
                        {
                            "code": "diagnostic-implication",
                            "system": "http://hl7.org/fhir/uv/genomics-reporting/CodeSystem/tbd-codes-cs"
                        }
                    ]
                },
                "component": [
                    {
                        "code": {
                            "coding": [
                                {
                                    "code": "53037-8",
                                    "display": "Genetic variation clinical significance",
                                    "system": "http://loinc.org"
                                }
                            ]
                        },
                        "valueCodeableConcept": {
                            "coding": [
                                {
                                    "code": "LA6675-8",
                                    "display": "Benign",
                                    "system": "http://loinc.org"
                                }
                            ]
                        }
                    },
                    {
                        "code": {
                            "coding": [
                                {
                                    "code": "81259-4",
                                    "display": "predicted phenotype",
                                    "system": "http://loinc.org"
                                }
                            ]
                        },
                        "valueCodeableConcept": {
                            "coding": [
                                {
                                    "code": "C1708353",
                                    "display": "Hereditary pheochromocytoma-paraganglioma",
                                    "system": "https://www.ncbi.nlm.nih.gov/medgen"
                                }
                            ]
                        }
                    },
                    {
                        "code": {
                            "coding": [
                                {
                                    "code": "93044-6",
                                    "display": "Level of evidence",
                                    "system": "http://loinc.org"
                                }
                            ]
                        },
                        "valueCodeableConcept": {
                            "text": "criteria provided, single submitter"
                        }
                    }
                ],
                "derivedFrom": [
                    {
                        "reference": "Observation/dv-d9c5ad61266c4f3c90e44199a8864662"
                    }
                ],
                "id": "dv-62fab6475932091e78bff0a1",
                "identifier": [
                    {
                        "system": "http://www.ncbi.nlm.nih.gov/clinvar",
                        "value": "44641"
                    },
                    {
                        "system": "http://www.ncbi.nlm.nih.gov/clinvar/scv",
                        "value": "SCV000351450.3"
                    }
                ],
                "meta": {
                    "profile": [
                        "http://hl7.org/fhir/uv/genomics-reporting/StructureDefinition/diagnostic-implication"
                    ]
                },
                "resourceType": "Observation",
                "status": "final",
                "subject": {
                    "reference": "Patient/huC30902"
                }
            }
        },
        {
            "name": "variant",
            "resource": {
                "category": [
                    {
                        "coding": [
                            {
                                "code": "laboratory",
                                "system": "http://terminology.hl7.org/CodeSystem/observation-category"
                            }
                        ]
                    }
                ],
                "code": {
                    "coding": [
                        {
                            "code": "69548-6",
                            "display": "Genetic variant assessment",
                            "system": "http://loinc.org"
                        }
                    ]
                },
                "component": [
                    {
                        "code": {
                            "coding": [
                                {
                                    "code": "48002-0",
                                    "display": "Genomic Source Class",
                                    "system": "http://loinc.org"
                                }
                            ]
                        },
                        "valueCodeableConcept": {
                            "coding": [
                                {
                                    "code": "LA6683-2",
                                    "display": "germline",
                                    "system": "http://loinc.org"
                                }
                            ]
                        }
                    },
                    {
                        "code": {
                            "coding": [
                                {
                                    "code": "48013-7",
                                    "display": "Genomic reference sequence ID",
                                    "system": "http://loinc.org"
                                }
                            ]
                        },
                        "valueCodeableConcept": {
                            "coding": [
                                {
                                    "code": "NC_000001.10",
                                    "system": "http://www.ncbi.nlm.nih.gov/nuccore"
                                }
                            ]
                        }
                    },
                    {
                        "code": {
                            "coding": [
                                {
                                    "code": "53034-5",
                                    "display": "Allelic state",
                                    "system": "http://loinc.org"
                                }
                            ]
                        },
                        "valueCodeableConcept": {
                            "coding": [
                                {
                                    "code": "LA6705-3",
                                    "display": "homozygous",
                                    "system": "http://loinc.org"
                                }
                            ]
                        }
                    },
                    {
                        "code": {
                            "coding": [
                                {
                                    "code": "69547-8",
                                    "display": "Genomic Ref allele [ID]",
                                    "system": "http://loinc.org"
                                }
                            ]
                        },
                        "valueString": "G"
                    },
                    {
                        "code": {
                            "coding": [
                                {
                                    "code": "69551-0",
                                    "display": "Genomic Alt allele [ID]",
                                    "system": "http://loinc.org"
                                }
                            ]
                        },
                        "valueString": "T"
                    },
                    {
                        "code": {
                            "coding": [
                                {
                                    "code": "81252-9",
                                    "display": "Discrete genetic variant",
                                    "system": "http://loinc.org"
                                }
                            ]
                        },
                        "valueCodeableConcept": {
                            "coding": [
                                {
                                    "code": "NC_000001.10:17380496:G:T",
                                    "display": "NC_000001.10:17380496:G:T",
                                    "system": "https://api.ncbi.nlm.nih.gov/variation/v0/"
                                }
                            ]
                        }
                    },
                    {
                        "code": {
                            "coding": [
                                {
                                    "code": "81254-5",
                                    "display": "Variant exact start-end",
                                    "system": "http://loinc.org"
                                }
                            ]
                        },
                        "valueRange": {
                            "low": {
                                "value": 17380496
                            }
                        }
                    },
                    {
                        "code": {
                            "coding": [
                                {
                                    "code": "81258-6",
                                    "display": "Sample VAF",
                                    "system": "http://loinc.org"
                                }
                            ]
                        },
                        "valueQuantity": {
                            "code": "1",
                            "system": "http://unitsofmeasure.org",
                            "unit": "relative frequency of a particular allele in the specimen",
                            "value": 1.0
                        }
                    },
                    {
                        "code": {
                            "coding": [
                                {
                                    "code": "92821-8",
                                    "display": "Population allele frequency",
                                    "system": "http://loinc.org"
                                }
                            ]
                        },
                        "valueQuantity": {
                            "code": "1",
                            "system": "http://unitsofmeasure.org",
                            "value": 0.973659
                        }
                    },
                    {
                        "code": {
                            "coding": [
                                {
                                    "code": "92822-6",
                                    "display": "Genomic coord system",
                                    "system": "http://loinc.org"
                                }
                            ]
                        },
                        "valueCodeableConcept": {
                            "coding": [
                                {
                                    "code": "LA30100-4",
                                    "display": "0-based interval counting",
                                    "system": "http://loinc.org"
                                }
                            ]
                        }
                    }
                ],
                "id": "dv-d9c5ad61266c4f3c90e44199a8864662",
                "meta": {
                    "profile": [
                        "http://hl7.org/fhir/uv/genomics-reporting/StructureDefinition/variant"
                    ]
                },
                "resourceType": "Observation",
                "status": "final",
                "subject": {
                    "reference": "Patient/huC30902"
                },
                "valueCodeableConcept": {
                    "coding": [
                        {
                            "code": "LA9633-4",
                            "display": "present",
                            "system": "http://loinc.org"
                        }
                    ]
                }
            }
        },
        {
            "name": "variant",
            "resource": {
                "category": [
                    {
                        "coding": [
                            {
                                "code": "laboratory",
                                "system": "http://terminology.hl7.org/CodeSystem/observation-category"
                            }
                        ]
                    }
                ],
                "code": {
                    "coding": [
                        {
                            "code": "69548-6",
                            "display": "Genetic variant assessment",
                            "system": "http://loinc.org"
                        }
                    ]
                },
                "component": [
                    {
                        "code": {
                            "coding": [
                                {
                                    "code": "48002-0",
                                    "display": "Genomic Source Class",
                                    "system": "http://loinc.org"
                                }
                            ]
                        },
                        "valueCodeableConcept": {
                            "coding": [
                                {
                                    "code": "LA6683-2",
                                    "display": "germline",
                                    "system": "http://loinc.org"
                                }
                            ]
                        }
                    },
                    {
                        "code": {
                            "coding": [
                                {
                                    "code": "48013-7",
                                    "display": "Genomic reference sequence ID",
                                    "system": "http://loinc.org"
                                }
                            ]
                        },
                        "valueCodeableConcept": {
                            "coding": [
                                {
                                    "code": "NC_000001.10",
                                    "system": "http://www.ncbi.nlm.nih.gov/nuccore"
                                }
                            ]
                        }
                    },
                    {
                        "code": {
                            "coding": [
                                {
                                    "code": "53034-5",
                                    "display": "Allelic state",
                                    "system": "http://loinc.org"
                                }
                            ]
                        },
                        "valueCodeableConcept": {
                            "coding": [
                                {
                                    "code": "LA6706-1",
                                    "display": "heterozygous",
                                    "system": "http://loinc.org"
                                }
                            ]
                        }
                    },
                    {
                        "code": {
                            "coding": [
                                {
                                    "code": "69547-8",
                                    "display": "Genomic Ref allele [ID]",
                                    "system": "http://loinc.org"
                                }
                            ]
                        },
                        "valueString": "C"
                    },
                    {
                        "code": {
                            "coding": [
                                {
                                    "code": "69551-0",
                                    "display": "Genomic Alt allele [ID]",
                                    "system": "http://loinc.org"
                                }
                            ]
                        },
                        "valueString": "T"
                    },
                    {
                        "code": {
                            "coding": [
                                {
                                    "code": "81252-9",
                                    "display": "Discrete genetic variant",
                                    "system": "http://loinc.org"
                                }
                            ]
                        },
                        "valueCodeableConcept": {
                            "coding": [
                                {
                                    "code": "NC_000001.10:161333381:C:T",
                                    "display": "NC_000001.10:161333381:C:T",
                                    "system": "https://api.ncbi.nlm.nih.gov/variation/v0/"
                                }
                            ]
                        }
                    },
                    {
                        "code": {
                            "coding": [
                                {
                                    "code": "81254-5",
                                    "display": "Variant exact start-end",
                                    "system": "http://loinc.org"
                                }
                            ]
                        },
                        "valueRange": {
                            "low": {
                                "value": 161333381
                            }
                        }
                    },
                    {
                        "code": {
                            "coding": [
                                {
                                    "code": "81258-6",
                                    "display": "Sample VAF",
                                    "system": "http://loinc.org"
                                }
                            ]
                        },
                        "valueQuantity": {
                            "code": "1",
                            "system": "http://unitsofmeasure.org",
                            "unit": "relative frequency of a particular allele in the specimen",
                            "value": 0.5
                        }
                    },
                    {
                        "code": {
                            "coding": [
                                {
                                    "code": "92822-6",
                                    "display": "Genomic coord system",
                                    "system": "http://loinc.org"
                                }
                            ]
                        },
                        "valueCodeableConcept": {
                            "coding": [
                                {
                                    "code": "LA30100-4",
                                    "display": "0-based interval counting",
                                    "system": "http://loinc.org"
                                }
                            ]
                        }
                    }
                ],
                "id": "dv-aad8639bd558470a9ca8612eae011065",
                "meta": {
                    "profile": [
                        "http://hl7.org/fhir/uv/genomics-reporting/StructureDefinition/variant"
                    ]
                },
                "resourceType": "Observation",
                "status": "final",
                "subject": {
                    "reference": "Patient/huC30902"
                },
                "valueCodeableConcept": {
                    "coding": [
                        {
                            "code": "LA9633-4",
                            "display": "present",
                            "system": "http://loinc.org"
                        }
                    ]
                }
            }
        }
    ],
    "resourceType": "Parameters"
}